Folder: XRDshift/XRD_shift_danny/data

File: 79A64-130.xy
#Intensity_unit=cps
#Attenuator_coefficient=1.0000
3.0000 11280.7
3.1300 11910
3.2600 11004.4
3.3900 12517.7
3.5200 9786.1
3.6500 11209.5
3.7800 11442.5
3.9100 17520.4
4.0400 36710.7
4.1700 124176
4.3000 372388
4.4300 36494.8
4.5600 12773.5
4.6900 9958.41
4.8200 9230.02
4.9500 7215.19
5.0800 6130.1
5.2100 5749.32
5.3400 6119.8
5.4700 5261.6
5.6000 4983.99
5.7300 4170.97
5.8600 4086.1
5.9900 3821.39
6.1200 3828.47
6.2500 3469.79
6.3800 3734.37
6.5100 3695.88
6.6400 3330.03
6.7700 3554.14
6.9000 3428.88
7.0300 4680.69
7.1600 3752.63
7.2900 3193.92
7.4200 3383.05
7.5500 3371.76
7.6800 3444.52
7.8100 3535.18
7.9400 4025.3
8.0700 7485.39
8.2000 39747
8.3300 60102.2
8.4600 13295.9
8.5900 59157.5
8.7200 44595.7
8.8500 6434.47
8.9800 4336.59
9.1100 4717.91
9.2400 4188.7
9.3700 2608.01
9.5000 2983.71
9.6300 2988.08
9.7600 3353.94
9.8900 9371.76
10.0200 36685.6
10.1500 3815.28
10.2800 2678.3
10.4100 2136.93
10.5400 1838.34
10.6700 2285.65
10.8000 5515.05
10.9300 20005.6
11.0600 2377.32
11.1900 1731.75
11.3200 1407.82
11.4500 1458.04
11.5800 1383.09
11.7100 1330.8
11.8400 1362.82
11.9700 1301.62
12.1000 1156.66
12.2300 1355.64
12.3600 1382.15
12.4900 1100.2
12.6200 1169.03
12.7500 1202.9
12.8800 1755.72
13.0100 9414.09
13.1400 1516.74
13.2700 1223.6
13.4000 929.5925
13.5300 955.8475
13.6600 878.5475
13.7900 1006.25
13.9200 862.6575
14.0500 1010.95
14.1800 3109.88
14.3100 1125.37
14.4400 1038.93
14.5700 737.5500
14.7000 838.8250
14.8300 1725.22
14.9600 929.9775
15.0900 915.2675
15.2200 776.1600
15.3500 766.4400
15.4800 588.1575
15.6100 656.0675
15.7400 744.6275
15.8700 1302.68
16.0000 754.1775
16.1300 733.0900
16.2600 699.5700
16.3900 922.5800
16.5200 926.1050
16.6500 750.1450
16.7800 730.6950
16.9100 644.6825
17.0400 556.0825
17.1700 629.1650
17.3000 682.7275
17.4300 652.7675
17.5600 615.4200
17.6900 789.9075
17.8200 667.1350
17.9500 1594.27
18.0800 738.7775
18.2100 623.8850
18.3400 670.9225
18.4700 692.1125
18.6000 575.3275
18.7300 687.8650
18.8600 948.1550
18.9900 734.9125
19.1200 631.7125
19.2500 2035.47
19.3800 2274.93
19.5100 646.7425
19.6400 702.5650
19.7700 682.4750
19.9000 641.6225
20.0300 1006.94
20.1600 2216.73
20.2900 839.0425
20.4200 649.6000
20.5500 1205.93
20.6800 2005.31
20.8100 2823.94
20.9400 867.7450
21.0700 603.8925
21.2000 800.0000
21.3300 1603.71
21.4600 890.0575
21.5900 767.7350
21.7200 852.7675
21.8500 1087.85
21.9800 783.3325
22.1100 678.6425
22.2400 748.1300
22.3700 690.8450
22.5000 1242.12
22.6300 912.2000
22.7600 607.8450
22.8900 1250
23.0200 1523.15
23.1500 840.9050
23.2800 641.8700
23.4100 737.6050
23.5400 616.6675
23.6700 720.6875
23.8000 679.3700
23.9300 670.5750
24.0600 1656.36
24.1900 691.5600
24.3200 753.3975
24.4500 748.2350
24.5800 620.2975
24.7100 720.2425
24.8400 733.3325
24.9700 727.0600
25.1000 2583.33
25.2300 889.7325
25.3600 686.8050
25.4900 552.7925
25.6200 770.5825
25.7500 1347.87
25.8800 857.4350
26.0100 796.9775
26.1400 1819.2
26.2700 2365.86
26.4000 1001.92
26.5300 661.2025
26.6600 794.7025
26.7900 895.1425
26.9200 1001.78
27.0500 2116.67
27.1800 2790.91
27.3100 1564.82
27.4400 633.5675
27.5700 671.3850
27.7000 645.3925
27.8300 869.8400
27.9600 1159.66
28.0900 2680.75
28.2200 791.6650
28.3500 774.7800
28.4800 692.1075
28.6100 864.7475
28.7400 874.1175
28.8700 1197.8
29.0000 2534.19
29.1300 2132.72
29.2600 728.4075
29.3900 683.3325
29.5200 2750
29.6500 1043.04
29.7800 808.1375
29.9100 1005.47
30.0400 741.2000
30.1700 680.8225
30.3000 566.8075
30.4300 1038.55
30.5600 634.4225
30.6900 862.5275
30.8200 716.6675
30.9500 633.3325
31.0800 610.5850
31.2100 602.4400
31.3400 582.5750
31.4700 518.7750
31.6000 564.0775
31.7300 710.1525
31.8600 583.3325
31.9900 633.8150
32.1200 966.6675
32.2500 681.8525
32.3800 601.8900
32.5100 801.0375
32.6400 400.2050
32.7700 599.1100
32.9000 450.9250
33.0300 500.2950
33.1600 1033.28
33.2900 1082.44
33.4200 483.7225
33.5500 466.8525
33.6800 600.2425
33.8100 450.2975
33.9400 664.9000
34.0700 1096.32
34.2000 636.5875
34.3300 552.0825
34.4600 638.5250
34.5900 665.4000
34.7200 791.7350
34.8500 864.4325
34.9800 377.0800
35.1100 564.0950
35.2400 421.2325
35.3700 515.6975
35.5000 1151.28
35.6300 887.6625
35.7600 603.4150
35.8900 511.8875
36.0200 1409.16
36.1500 712.7425
36.2800 787.4250
36.4100 1018.09
36.5400 558.8650
36.6700 568.2000
36.8000 450.0000
36.9300 383.3325
37.0600 650.0000
37.1900 488.6175
37.3200 555.7575
37.4500 811.0400
37.5800 655.7975
37.7100 882.0975
37.8400 610.2325
37.9700 435.4375
38.1000 497.8400
38.2300 375.5400
38.3600 483.3325
38.4900 841.0050
38.6200 838.0475
38.7500 378.9050
38.8800 548.3650
39.0100 539.7350
39.1400 916.6675
39.2700 809.8225
39.4000 422.1400
39.5300 422.2550
39.6600 500.0000
39.7900 799.2050
39.9200 905.4750
40.0000 733.3325

File: MOF808.xy
#Intensity_unit=cps
#Attenuator_coefficient=1.0000
3.0000 9193.94
3.1300 7482.06
3.2600 7660.55
3.3900 7893.69
3.5200 6415.91
3.6500 6223.31
3.7800 7194.41
3.9100 9178.23
4.0400 19155.4
4.1700 54499.8
4.3000 174636
4.4300 292324
4.5600 19569
4.6900 9452.83
4.8200 6398.94
4.9500 5574.61
5.0800 4412.84
5.2100 4271.53
5.3400 3569.81
5.4700 2475.57
5.6000 3119.32
5.7300 2532.53
5.8600 2627.43
5.9900 2641.65
6.1200 1946.64
6.2500 2196.99
6.3800 2426.89
6.5100 1659.89
6.6400 1602.95
6.7700 1890.68
6.9000 2318.3
7.0300 2443.93
7.1600 4125.53
7.2900 2815.6
7.4200 2480.53
7.5500 2294.26
7.6800 2158.81
7.8100 2471.75
7.9400 2642.26
8.0700 3549.76
8.2000 12940.8
8.3300 56589.5
8.4600 24294.4
8.5900 18604.3
8.7200 75334.4
8.8500 13680.3
8.9800 4403.19
9.1100 3384.59
9.2400 2558.33
9.3700 2110.34
9.5000 1852.52
9.6300 1875.03
9.7600 2069.81
9.8900 3514.77
10.0200 16443.5
10.1500 16923.3
10.2800 2533.3
10.4100 1783.92
10.5400 1549.12
10.6700 1668.46
10.8000 2265.46
10.9300 9386.66
11.0600 7404.09
11.1900 1340.06
11.3200 1104.81
11.4500 1127.16
11.5800 906.8550
11.7100 893.2650
11.8400 926.9450
11.9700 842.0825
12.1000 682.6000
12.2300 954.6275
12.3600 1006.69
12.4900 779.6450
12.6200 816.9900
12.7500 930.7825
12.8800 778.7575
13.0100 2953.82
13.1400 5426.93
13.2700 856.4800
13.4000 745.3550
13.5300 803.8900
13.6600 865.7575
13.7900 610.3825
13.9200 896.2550
14.0500 799.2250
14.1800 1560.52
14.3100 2092.26
14.4400 821.6025
14.5700 664.5775
14.7000 701.3325
14.8300 1101.88
14.9600 1311.6
15.0900 821.7575
15.2200 596.0800
15.3500 575.7200
15.4800 660.0825
15.6100 470.8000
15.7400 651.3400
15.8700 775.8575
16.0000 769.5275
16.1300 579.6925
16.2600 592.7325
16.3900 754.2000
16.5200 1193.4
16.6500 693.8825
16.7800 686.5350
16.9100 554.0225
17.0400 589.6100
17.1700 553.1750
17.3000 653.9800
17.4300 465.9375
17.5600 576.4450
17.6900 513.7425
17.8200 639.8675
17.9500 1074.98
18.0800 1181.12
18.2100 639.9175
18.3400 658.7225
18.4700 588.3975
18.6000 590.5625
18.7300 587.0150
18.8600 824.9500
18.9900 630.6175
19.1200 664.5250
19.2500 1017.29
19.3800 3123.89
19.5100 1036.39
19.6400 707.7650
19.7700 503.4575
19.9000 569.8175
20.0300 695.4500
20.1600 1594.16
20.2900 1167.36
20.4200 610.4425
20.5500 778.5375
20.6800 1549.26
20.8100 3048.18
20.9400 1181.37
21.0700 737.2250
21.2000 658.7500
21.3300 951.5850
21.4600 1501.76
21.5900 750.0000
21.7200 634.0075
21.8500 1035.88
21.9800 995.3650
22.1100 807.7900
22.2400 604.6350
22.3700 702.9325
22.5000 803.1000
22.6300 1127.67
22.7600 826.9750
22.8900 862.3125
23.0200 1257.54
23.1500 879.0900
23.2800 745.8950
23.4100 708.4050
23.5400 678.5300
23.6700 800.5875
23.8000 662.7025
23.9300 653.9075
24.0600 1175.72
24.1900 1112.87
24.3200 449.6550
24.4500 609.2925
24.5800 550.0000
24.7100 698.7900
24.8400 719.2525
24.9700 763.2025
25.1000 1480.68
25.2300 1736.28
25.3600 566.4925
25.4900 776.3950
25.6200 673.0425
25.7500 942.7300
25.8800 948.2025
26.0100 684.8900
26.1400 1152.97
26.2700 1733.33
26.4000 1265.73
26.5300 735.9950
26.6600 719.6050
26.7900 560.2375
26.9200 685.9675
27.0500 1387.1
27.1800 2764.65
27.3100 2425.3
27.4400 907.0100
27.5700 545.4325
27.7000 762.5975
27.8300 717.5900
27.9600 907.4650
28.0900 2246.16
28.2200 1139.58
28.3500 746.3850
28.4800 592.1075
28.6100 634.6550
28.7400 603.7250
28.8700 950.0000
29.0000 2349.11
29.1300 2451.7
29.2600 1038.26
29.3900 807.9350
29.5200 1613.79
29.6500 1758.23
29.7800 709.9500
29.9100 958.4700
30.0400 984.2675
30.1700 553.7675
30.3000 475.0700
30.4300 758.0175
30.5600 725.7025
30.6900 632.2975
30.8200 744.1225
30.9500 558.3475
31.0800 370.1425
31.2100 513.4125
31.3400 665.1500
31.4700 577.0075
31.6000 566.0200
31.7300 659.5625
31.8600 645.1700
31.9900 585.2575
32.1200 883.7600
32.2500 761.4825
32.3800 599.0550
32.5100 650.2600
32.6400 766.2600
32.7700 366.5175
32.9000 599.2600
33.0300 583.3700
33.1600 983.3525
33.2900 1216.74
33.4200 699.6100
33.5500 433.3325
33.6800 451.6900
33.8100 484.5225
33.9400 603.5325
34.0700 800.0000
34.2000 819.4550
34.3300 515.6250
34.4600 534.4875
34.5900 552.5300
34.7200 621.4875
34.8500 927.3750
34.9800 619.8700
35.1100 431.6200
35.2400 527.8525
35.3700 352.9075
35.5000 797.9475
35.6300 937.6625
35.7600 492.4400
35.8900 723.7750
36.0200 1094.99
36.1500 705.2300
36.2800 755.7525
36.4100 875.1925
36.5400 654.8475
36.6700 507.4625
36.8000 407.9550
36.9300 478.3900
37.0600 575.1900
37.1900 420.1900
37.3200 307.2725
37.4500 561.0400
37.5800 631.4000
37.7100 632.0975
37.8400 664.3250
37.9700 372.9775
38.1000 397.8400
38.2300 350.0000
38.3600 414.3925
38.4900 616.3300
38.6200 497.7400
38.7500 480.8850
38.8800 340.8500
39.0100 373.0675
39.1400 656.1825
39.2700 550.0000
39.4000 366.6675
39.5300 330.5400
39.6600 455.2575
39.7900 657.1425
39.9200 702.9675
40.0000 666.6675